File: XRD_example1.txt
10	5.08267
10.02	5.40841
10.04	5.35073
10.06	5.23934
10.08	4.95134
10.1	4.64031
10.12	4.34966
10.14	4.33563
10.16	4.43336
10.18	4.46366
10.2	4.68417
10.22	4.8716
10.24	5.05252
10.26	5.14657
10.28	5.26186
10.3	5.16487
10.32	5.2814
10.34	5.35271
10.36	5.11601
10.38	5.04888
10.4	4.72442
10.42	4.68873
10.44	4.69305
10.46	4.78189
10.48	4.89472
10.5	4.84457
10.52	4.89821
10.54	4.97516
10.56	5.21938
10.58	5.39296
10.6	5.51052
10.62	5.59257
10.64	5.71263
10.66	5.81287
10.68	5.94903
10.7	5.80378
10.72	5.67767
10.74	5.7058
10.76	5.65827
10.78	5.54742
10.8	5.36829
10.82	5.25572
10.84	5.18776
10.86	5.23488
10.88	5.36918
10.9	5.40222
10.92	5.48828
10.94	5.4289
10.96	5.53865
10.98	5.49591
11	5.65431
11.02	5.67321
11.04	5.71427
11.06	5.86018
11.08	5.71893
11.1	5.71508
11.12	5.61957
11.14	5.81869
11.16	6.3072
11.18	6.77206
11.2	6.96196
11.22	6.961
11.24	7.16767
11.26	7.35743
11.28	7.60802
11.3	8.02113
11.32	8.25242
11.34	8.54181
11.36	8.54971
11.38	8.45784
11.4	8.62076
11.42	9.09851
11.44	9.59934
11.46	10.0659
11.48	10.5121
11.5	10.9197
11.52	11.3642
11.54	12.0369
11.56	12.704
11.58	13.3694
11.6	14.2203
11.62	15.1154
11.64	15.999
11.66	16.9251
11.68	18.0368
11.7	19.4744
11.72	21.3594
11.74	23.1044
11.76	24.7051
11.78	26.4483
11.8	28.5381
11.82	30.8393
11.84	33.3101
11.86	36.6768
11.88	40.1382
11.9	43.577
11.92	47.5202
11.94	52.5986
11.96	57.2094
11.98	61.6597
12	66.382
12.02	71.8703
12.04	76.6008
12.06	80.8987
12.08	85.3093
12.1	89.774
12.12	93.2978
12.14	95.9753
12.16	98.2741
12.18	99.7644
12.2	100*
12.22	99.4413
12.24	97.8896
12.26	95.1969
12.28	92.0653
12.3	88.4066
12.32	84.0117
12.34	79.7467
12.36	75.4767
12.38	70.2008
12.4	64.7302
12.42	60.1038
12.44	55.5701
12.46	50.312
12.48	45.7652
12.5	41.9941
12.52	38.6865
12.54	35.4585
12.56	32.5036
12.58	29.7275
12.6	26.9599
12.62	24.4533
12.64	22.4826
12.66	20.9643
12.68	19.197
12.7	17.5345
12.72	16.2744
12.74	14.9859
12.76	13.9688
12.78	12.8927
12.8	12.0543
12.82	11.5184
12.84	10.8095
12.86	10.3065
12.88	9.72702
12.9	9.22987
12.92	8.77293
12.94	8.55617
12.96	8.44012
12.98	8.19144
13	7.76388
13.02	7.43991
13.04	7.02714
13.06	6.5831
13.08	6.26637
13.1	6.04427
13.12	5.95514
13.14	5.82235
13.16	5.82966
13.18	5.80021
13.2	6.00055
13.22	6.37584
13.24	6.53457
13.26	6.32095
13.28	5.83649
13.3	5.37369
13.32	5.11051
13.34	4.74645
13.36	4.2385
13.38	3.98456
13.4	4.09542
13.42	4.51777
13.44	4.97464
13.46	5.04918
13.48	4.85861
13.5	4.68465
13.52	4.42298
13.54	4.37629
13.56	4.39931
13.58	4.645
13.6	4.57168
13.62	4.49023
13.64	4.3422
13.66	4.249
13.68	4.21394
13.7	4.08664
13.72	3.92767
13.74	3.80508
13.76	3.90324
13.78	3.95685
13.8	3.98815
13.82	4.01334
13.84	4.0086
13.86	4.24603
13.88	4.64142
13.9	4.72709
13.92	4.78696
13.94	4.62585
13.96	4.3664
13.98	4.27276
14	4.07007
14.02	4.00551
14.04	3.89143
14.06	3.82871
14.08	3.88249
14.1	4.10966
14.12	4.33431
14.14	4.47832
14.16	4.50581
14.18	4.57488
14.2	4.84237
14.22	5.1113
14.24	5.3591
14.26	5.38479
14.28	5.30416
14.3	5.28646
14.32	5.17953
14.34	5.12266
14.36	5.17888
14.38	5.19276
14.4	5.13013
14.42	5.28743
14.44	5.32776
14.46	5.41744
14.48	5.38206
14.5	5.39932
14.52	5.46645
14.54	5.71761
14.56	6.09614
14.58	6.43633
14.6	6.64951
14.62	6.84961
14.64	6.79806
14.66	6.82121
14.68	7.02492
14.7	7.44109
14.72	7.75797
14.74	8.08908
14.76	8.34429
14.78	8.73945
14.8	9.19063
14.82	9.60413
14.84	10.2273
14.86	11.0223
14.88	11.9548
14.9	12.9784
14.92	14.1811
14.94	15.4799
14.96	16.7271
14.98	18.1034
15	19.0535
15.02	19.8915
15.04	21.0242
15.06	22.7429
15.08	24.3019
15.1	26.1823
15.12	28.6069
15.14	31.5748
15.16	34.4811
15.18	37.2898
15.2	40.6992
15.22	44.2839
15.24	47.9529
15.26	51.7641
15.28	55.9299
15.3	59.6616
15.32	63.3566
15.34	66.9256
15.36	70.3226
15.38	73.0904
15.4	75.4015
15.42	77.3475
15.44	78.7056
15.46	79.272*
15.48	79.0317
15.5	78.0659
15.52	76.3401
15.54	73.8681
15.56	70.693
15.58	67.0245
15.6	63.3954
15.62	59.772
15.64	55.576
15.66	51.585
15.68	48.2837
15.7	44.8536
15.72	40.891
15.74	37.338
15.76	34.2943
15.78	31.4117
15.8	28.6971
15.82	26.4592
15.84	24.4231
15.86	22.566
15.88	21.1021
15.9	19.7067
15.92	18.2052
15.94	16.5411
15.96	15.2211
15.98	13.9675
16	12.8426
16.02	11.8924
16.04	11.1638
16.06	10.5587
16.08	9.83374
16.1	9.280251
16.12	8.89153
16.14	8.5466
16.16	8.30037
16.18	8.13689
16.2	7.93492
16.22	7.69538
16.24	7.30338
16.26	6.91361
16.28	6.59064
16.3	6.13701
16.32	5.77161
16.34	5.46791
16.36	5.30469
16.38	5.27865
16.4	5.28715
16.42	5.27162
16.44	5.14864
16.46	5.00871
16.48	4.95504
16.5	4.79598
16.52	4.8396
16.54	4.94283
16.56	5.27334
16.58	5.44404
16.6	5.39121
16.62	5.13791
16.64	5.03625
16.66	5.09684
16.68	5.12608
16.7	4.98824
16.72	5.13551
16.74	5.34235
16.76	5.70162
16.78	6.07114
16.8	6.52496
16.82	7.03314
16.84	7.56081
16.86	8.07332
16.88	8.51391
16.9	8.91944
16.92	9.25272
16.94	9.47004
16.96	9.8633
16.98	10.2909
17	10.9928
17.02	11.8514
17.04	13.1047
17.06	13.9688
17.08	14.7322
17.1	15.5244
17.12	16.4211
17.14	17.55048
17.16	18.8312
17.18	19.7961
17.2	20.6196
17.22	21.1668
17.24	21.438
17.26	21.6487
17.28	21.7206
17.3	21.6542
17.32	21.4424
17.34	20.9656
17.36	20.3189
17.38	19.3116
17.4	18.2502
17.42	17.4794
17.44	16.7475
17.46	15.9923
17.48	15.0576
17.5	14.1944
17.52	13.3337
17.54	12.7042
17.56	12.0379
17.58	11.2531
17.6	10.4564
17.62	9.88801
17.64	9.42777
17.66	8.95697
17.68	8.59852
17.7	8.24848
17.72	8.00167
17.74	7.77643
17.76	7.51736
17.78	7.27502
17.8	7.06121
17.82	6.72975
17.84	6.3613
17.86	5.83319
17.88	5.29391
17.9	5.01094
17.92	4.77827
17.94	4.57133
17.96	4.18647
17.98	3.81941
18	3.71275
18.02	3.61221
18.04	3.51362
18.06	3.28561
18.08	3.14855
18.1	3.086
18.12	3.09112
18.14	2.86153
18.16	2.69849
18.18	2.68247
18.2	2.7815
18.22	2.83728
18.24	2.70324
18.26	2.54139
18.28	2.454
18.3	2.34475
18.32	2.23717
18.34	2.12784
18.36	2.02773
18.38	2.04295
18.4	1.87363
18.42	1.83002
18.44	1.93798
18.46	2.08176
18.48	2.29025
18.5	2.27524
18.52	2.26378
18.54	2.15823
18.56	2.0376
18.58	1.90507
18.6	1.70318
18.62	1.75862
18.64	1.80398
18.66	2.03621
18.68	2.16036
18.7	2.2803
18.72	2.35598
18.74	2.31795
18.76	2.32116
18.78	2.27168
18.8	2.13693
18.82	2.0686
18.84	1.95731
18.86	2.13091
18.88	2.16103
18.9	2.05185
18.92	2.07146
18.94	2.07027
18.96	2.16762
18.98	2.39055
19	2.39488
19.02	2.37581
19.04	2.25018
19.06	2.22642
19.08	2.23793
19.1	2.19087
19.12	2.14486
19.14	2.09501
19.16	1.95669
19.18	1.97228
19.2	1.89903
19.22	1.88046
19.24	1.81965
19.26	1.8755
19.28	1.98555
19.3	2.24739
19.32	2.43775
19.34	2.5079
19.36	2.52627
19.38	2.42439
19.4	2.32927
19.42	2.41184
19.44	2.52824
19.46	2.53144
19.48	2.40867
19.5	2.36576
19.52	2.30954
19.54	2.23518
19.56	2.11386
19.58	2.0305
19.6	2.11841
19.62	2.18725
19.64	2.14157
19.66	2.13589
19.68	2.17848
19.7	1.98386
19.72	1.88443
19.74	1.93725
19.76	2.13037
19.78	2.23193
19.8	2.00144
19.82	1.86356
19.84	1.87265
19.86	2.01456
19.88	2.0889
19.9	2.11389
19.92	2.09003
19.94	1.92633
19.96	1.8082
19.98	1.80572
20	1.76597
20.02	1.68271
20.04	1.64276
20.06	1.65076
20.08	1.62927
20.1	1.64027
20.12	1.54236
20.14	1.64978
20.16	1.72066
20.18	1.76868
20.2	1.70589
20.22	1.59636
20.24	1.62029
20.26	1.68175
20.28	1.69922
20.3	1.70057
20.32	1.74333
20.34	1.93196
20.36	2.10164
20.38	2.35451
20.4	2.53973
20.42	2.51365
20.44	2.34378
20.46	2.05847
20.48	2.00186
20.5	1.93943
20.52	1.96409
20.54	1.98111
20.56	2.03108
20.58	2.05703
20.6	2.1851
20.62	2.47934
20.64	2.81292
20.66	2.99615
20.68	2.83009
20.7	2.76475
20.72	2.54806
20.74	2.52806
20.76	2.343
20.78	2.27824
20.8	2.14847
20.82	2.15762
20.84	2.24174
20.86	2.30174
20.88	2.37641
20.9	2.37991
20.92	2.40897
20.94	2.4678
20.96	2.51587
20.98	2.66799
21	2.65083
21.02	2.57052
21.04	2.35321
21.06	2.36402
21.08	2.13733
21.1	1.89975
21.12	1.81773
21.14	1.83412
21.16	2.02168
21.18	2.10439
21.2	2.11992
21.22	2.12341
21.24	2.18373
21.26	2.15096
21.28	2.21151
21.3	2.15129
21.32	2.16004
21.34	2.16447
21.36	2.12974
21.38	2.06705
21.4	2.08188
21.42	2.05589
21.44	2.15004
21.46	2.03285
21.48	2.10579
21.5	2.21555
21.52	2.33211
21.54	2.38418
21.56	2.25932
21.58	2.0876
21.6	2.05957
21.62	2.0881
21.64	2.1476
21.66	2.20192
21.68	2.16809
21.7	2.23692
21.72	2.23918
21.74	2.27121
21.76	2.28637
21.78	2.2612
21.8	2.10653
21.82	1.90718
21.84	1.83811
21.86	1.93509
21.88	2.10732
21.9	2.03119
21.92	1.94453
21.94	1.99718
21.96	2.08843
21.98	2.20438
22	2.45718
22.02	2.51989
22.04	2.5263
22.06	2.48429
22.08	2.59456
22.1	2.95703
22.12	3.2703
22.14	3.44143
22.16	3.3512
22.18	3.15053
22.2	3.07056
22.22	3.05327
22.24	3.10373
22.26	2.99484
22.28	3.00383
22.3	3.14963
22.32	3.23156
22.34	3.34128
22.36	3.44944
22.38	3.62947
22.4	3.86229
22.42	4.0597
22.44	4.25583
22.46	4.65908
22.48	5.0027
22.5	5.18971
22.52	5.28076
22.54	5.3376
22.56	5.71408
22.58	6.73703
22.6	7.41428
22.62	7.80311
22.64	8.04981
22.66	8.47557
22.68	9.21791
22.7	10.0143
22.72	10.955
22.74	11.7221
22.76	12.7737
22.78	13.7376
22.8	14.7858
22.82	16.2035
22.84	18.4959
22.86	20.9363
22.88	23.1673
22.9	25.2998
22.92	27.588
22.94	30.0192
22.96	32.5926
22.98	36.2224
23	39.5671
23.02	42.869
23.04	46.3836
23.06	49.9259
23.08	53.0374
23.1	56.0668
23.12	58.9108
23.14	61.2351
23.16	63.259
23.18	64.7431
23.2	65.8377
23.22	66.5744
23.24	66.6378*
23.26	65.8404
23.28	64.6478
23.3	62.6048
23.32	60.373
23.34	58.0133
23.36	55.3819
23.38	52.1629
23.4	48.9804
23.42	45.7272
23.44	42.2718
23.46	39.1208
23.48	36.3584
23.5	33.3799
23.52	30.4468
23.54	27.9831
23.56	25.5901
23.58	23.2499
23.6	21.1243
23.62	19.25
23.64	17.4936
23.66	15.9192
23.68	14.6561
23.7	13.861
23.72	12.9027
23.74	12.3137
23.76	11.7464
23.78	11.1177
23.8	10.6778
23.82	10.1466
23.84	9.5148
23.86	9.18895
23.88	8.85667
23.9	8.65365
23.92	8.52006
23.94	8.00152
23.96	7.59566
23.98	7.40621
24	7.32534
24.02	7.08149
24.04	7.00041
24.06	7.18577
24.08	7.65607
24.1	7.83346
24.12	7.7902
24.14	8.10975
24.16	8.9546
24.18	9.75347
24.2	10.2831
24.22	10.6732
24.24	10.9272
24.26	11.6037
24.28	12.3366
24.3	13.2698
24.32	13.7349
24.34	14.1823
24.36	14.57816
24.38	15.0186
24.4	15.6606
24.42	15.9634
24.44	16.3008
24.46	16.3176
24.48	16.3053
24.5	15.9386
24.52	15.6236
24.54	15.1465
24.56	14.5427
24.58	14.0142
24.6	13.4208
24.62	12.8855
24.64	12.0466
24.66	11.2759
24.68	10.4252
24.7	9.84105
24.72	9.38864
24.74	8.88118
24.76	8.25557
24.78	7.45455
24.8	6.67569
24.82	6.09319
24.84	5.57206
24.86	5.1675
24.88	4.723
24.9	4.3421
24.92	4.12595
24.94	4.18843
24.96	4.14378
24.98	3.97855
25	3.71431
25.02	3.52694
25.04	3.57745
25.06	3.49717
25.08	3.44323
25.1	3.37829
25.12	3.49105
25.14	3.5987
25.16	3.70553
25.18	3.75969
25.2	3.69387
25.22	3.70186
25.24	3.53775
25.26	3.4724
25.28	3.30304
25.3	3.22172
25.32	3.15782
25.34	3.271
25.36	3.51463
25.38	3.89687
25.4	3.9954
25.42	4.08442
25.44	4.03082
25.46	4.10881
25.48	4.15368
25.5	4.41254
25.52	4.80723
25.54	5.29307
25.56	5.50126
25.58	5.90009
25.6	6.35403
25.62	6.86921
25.64	7.17643
25.66	7.35214
25.68	7.34395
25.7	7.42097
25.72	7.49663
25.74	7.37855
25.76	7.12394
25.78	7.02468
25.8	6.94655
25.82	7.01374
25.84	6.78836
25.86	6.65804
25.88	6.5222
25.9	6.20303
25.92	5.83424
25.94	5.56585
25.96	5.38553
25.98	5.28182
26	5.24861
26.02	5.08114
26.04	4.59875
26.06	4.11649
26.08	3.80567
26.1	3.68748
26.12	3.61001
26.14	3.49509
26.16	3.48416
26.18	3.39735
26.2	3.4516
26.22	3.49352
26.24	3.50065
26.26	3.58083
26.28	3.55752
26.3	3.27982
26.32	2.9991
26.34	2.84232
26.36	2.88643
26.38	2.89444
26.4	2.92414
26.42	3.1263
26.44	3.19895
26.46	3.17262
26.48	3.30348
26.5	3.35362
26.52	3.37759
26.54	3.24879
26.56	3.22348
26.58	3.25694
26.6	3.19785
26.62	3.07673
26.64	3.01449
26.66	3.11431
26.68	3.26832
26.7	3.29511
26.72	3.29932
26.74	3.31566
26.76	3.42787
26.78	3.42565
26.8	3.25114
26.82	3.16056
26.84	3.25498
26.86	3.39231
26.88	3.54859
26.9	3.61776
26.92	3.60247
26.94	3.64572
26.96	3.78019
26.98	3.9378
27	4.19263
27.02	4.53043
27.04	5.0681
27.06	5.84721
27.08	6.2607
27.1	6.56148
27.12	6.69387
27.14	6.91802
27.16	7.49089
27.18	8.13035
27.2	8.81941
27.22	9.57248
27.24	10.2442
27.26	10.8434
27.28	11.3925
27.3	12.0994