File: Week 10/XRD_example2.txt
10	7.30043
10.05	6.77765
10.1	6.43345
10.15	6.62067
10.2	6.2144
10.25	5.68202
10.3	5.84211
10.35	6.28898
10.4	6.55024
10.45	6.83682
10.5	6.5581
10.55	6.23972
10.6	6.20032
10.65	5.96804
10.7	6.18567
10.75	6.34396
10.8	6.06608
10.85	5.60604
10.9	5.39576
10.95	5.50942
11	5.67558
11.05	5.22644
11.1	4.9306
11.15	5.17318
11.2	5.50389
11.25	6.21571
11.3	6.50341
11.35	6.37901
11.4	6.05614
11.45	5.62147
11.5	5.06097
11.55	5.10929
11.6	5.46134
11.65	5.27886
11.7	4.95701
11.75	4.71225
11.8	4.86216
11.85	5.08698
11.9	5.2128
11.95	5.40769
12	5.37365
12.05	5.47305
12.1	5.43857
12.15	5.37302
12.2	5.2577
12.25	5.66771
12.3	6.20459
12.35	6.7937
12.4	6.67037
12.45	7.37315
12.5	7.96222
12.55	8.67425
12.6	8.88848
12.65	9.58315
12.7	9.56821
12.75	9.26186
12.8	9.24277
12.85	9.48208
12.9	10.0691
12.95	11.7747
13	14.9441
13.05	19.7925
13.1	31.5069
13.15	47.7063
13.2	70.7828
13.25	91.0144
13.3	100*
13.35	99.2029
13.4	82.0569
13.45	62.8634
13.5	42.4965
13.55	25.545
13.6	18.818
13.65	16.3446
13.7	19.6927
13.75	23.8066
13.8	28.5898
13.85	38.7538
13.9	39.4562
13.95	42.4728
14	39.4279
14.05	28.545
14.1	26.175
14.15	18.7322
14.2	19.1893
14.25	21.0753
14.3	26.0045
14.35	33.4275
14.4	43.8489
14.45	55.7451
14.5	69.3431
14.55	86.0462
14.6	95.1147*
14.65	91.5728
14.7	78.6838
14.75	58.6852
14.8	39.844
14.85	25.4784
14.9	15.7175
14.95	10.2698
15	7.95362
15.05	6.73494
15.1	6.47349
15.15	6.79954
15.2	6.75549
15.25	7.04918
15.3	7.03578
15.35	6.38238
15.4	6.06574
15.45	5.85075
15.5	5.57652
15.55	5.68286
15.6	5.75467
15.65	5.64036
15.7	5.65184
15.75	5.6311
15.8	5.60901
15.85	5.99466
15.9	5.92876
15.95	5.55307
16	5.09588
16.05	4.9122
16.1	5.24512
16.15	5.12146
16.2	5.16065
16.25	5.65439
16.3	5.96015
16.35	5.91417
16.4	5.31494
16.45	4.91462
16.5	5.26964
16.55	5.55701
16.6	5.57682
16.65	5.52275
16.7	5.14799
16.75	4.85151
16.8	4.75416
16.85	4.65732
16.9	4.60321
16.95	4.38396
17	4.36586
17.05	4.44556
17.1	4.56312
17.15	5.02833
17.2	5.49247
17.25	5.28973
17.3	5.05124
17.35	4.83873
17.4	4.36828
17.45	4.43615
17.5	4.74878
17.55	4.64466
17.6	5.04407
17.65	5.37678
17.7	5.26662
17.75	5.54277
17.8	5.92781
17.85	6.09894
17.9	6.12253
17.95	5.47306
18	5.0965
18.05	5.38909
18.1	6.19785
18.15	7.01455
18.2	6.69773
18.25	6.4481
18.3	6.15164
18.35	5.89337
18.4	6.11821
18.45	6.12975
18.5	6.07548
18.55	6.19325
18.6	7.52398
18.65	11.5396
18.7	17.6349
18.75	26.0183
18.8	32.0246
18.85	36.4387
18.9	35.9732
18.95	31.4907
19	25.2081
19.05	17.9946
19.1	13.8522
19.15	10.3143
19.2	7.9074
19.25	7.10129
19.3	6.84946
19.35	6.6739
19.4	6.631
19.45	6.41186
19.5	6.54035
19.55	6.73415
19.6	6.75126
19.65	6.91834
19.7	7.50867
19.75	8.11815
19.8	9.74268
19.85	10.0787
19.9	10.1902
19.95	11.1591
20	13.2751
20.05	14.974
20.1	19.0891
20.15	24.0639
20.2	32.202
20.25	32.0243
20.3	34.9837
20.35	32.0995
20.4	22.537
20.45	18.4436
20.5	11.8627
20.55	8.59205
20.6	7.37599
20.65	6.95299
20.7	6.44381
20.75	5.76125
20.8	5.30635
20.85	5.01102
20.9	5.07661
20.95	5.36921
21	5.25272
21.05	5.63208
21.1	5.6337
21.15	5.04336
21.2	4.5256
21.25	4.43124
21.3	4.42323
21.35	4.63465
21.4	4.81201
21.45	4.65495
21.5	4.04042
21.55	3.78383
21.6	3.69925
21.65	4.0241
21.7	4.10245
21.75	3.7301
21.8	3.7985
21.85	3.92075
21.9	3.89361
21.95	3.60721
22	3.25747
22.05	3.2811
22.1	3.50336
22.15	3.74932
22.2	3.49249
22.25	3.43232
22.3	3.44741
22.35	3.43515
22.4	3.67477
22.45	3.58165
22.5	3.57826
22.55	3.68253
22.6	3.65555
22.65	3.62044
22.7	3.69009
22.75	3.76435
22.8	3.94009
22.85	5.2286
22.9	6.75905
22.95	7.82848
23	8.71829
23.05	9.29118
23.1	9.20999
23.15	8.49634
23.2	7.35753
23.25	6.88967
23.3	5.66483
23.35	4.83959
23.4	4.83531
23.45	4.95939
23.5	5.14646
23.55	5.37163
23.6	5.33782
23.65	4.86245
23.7	4.50352
23.75	4.57065
23.8	4.30215
23.85	4.22815
23.9	4.28582
23.95	4.39072
24	4.78479
24.05	4.60836
24.1	4.22027
24.15	3.85798
24.2	3.97138
24.25	4.97643
24.3	5.70835
24.35	5.91629
24.4	7.58102
24.45	11.1969
24.5	17.6101
24.55	28.0614
24.6	38.3898
24.65	47.9707
24.7	52.2763*
24.75	50.2491
24.8	42.1486
24.85	32.4087
24.9	21.2051
24.95	13.3022
25	8.13881
25.05	6.03709
25.1	5.21003
25.15	4.67365
25.2	4.35263
25.25	4.18406
25.3	4.10262
25.35	4.06945
25.4	3.81825
25.45	3.65932
25.5	3.93635
25.55	4.04753
25.6	3.72129
25.65	3.36701
25.7	3.60566
25.75	3.70466
25.8	3.53574
25.85	3.76582
25.9	3.78232
25.95	4.15335
26	4.39194
26.05	3.84404
26.1	3.72593
26.15	3.74341
26.2	4.19416
26.25	4.27029
26.3	4.02657
26.35	4.05832
26.4	4.19329
26.45	4.31952
26.5	4.41649
26.55	4.74121
26.6	5.08916
26.65	4.9785
26.7	5.29987
26.75	5.66277
26.8	6.13294
26.85	6.07348
26.9	5.80511
26.95	5.54585
27	5.10851
27.05	5.55457
27.1	6.07
27.15	6.08317
27.2	5.96173
27.25	5.67636
27.3	5.90146